No. (ppm) (Hz) Height
1 2.49 1497.7 1.0000
2 2.58 1549.1 0.8978
3 3.30 1981.4 0.0840
4 3.31 1987.1 0.1678
5 3.32 1992.8 0.0910
6 3.36 2017.4 0.2681
7 4.17 2506.0 0.0559
8 4.18 2512.0 0.1343
9 4.19 2518.3 0.1343
10 4.20 2524.2 0.0549
11 5.45 3269.1 0.3844
12 8.04 4825.3 0.3385
13 9.41 5648.9 0.2657